File: Stefans_V44/datastefan/omega_scan_1.UXD
; C:\DIFFDAT1\Praktikum\Christian_Stefan\omega_scan_1.raw(Diffrac Plus V1.01 file) converted by XCH V1.0
_FILEVERSION=2
_SITE='Deutschland'
_USER='Administrator'
_GONIOMETER_CODE=4885
; D8 Theta/Theta; Special
_SAMPLE_CHANGER_CODE=0
_ATTACHMENTS_CODE=0
_GONIOMETER_RADIUS=350
_FIXED_DIVSLIT=0.600000
_FIXED_SAMPLESLIT=0.000000
_FIXED_DETSLIT=11.66
_MONOCHROMATOR=0
; None
_THIN_FILM='N'
_BETA_FILTER='Y'
_FIXED_ANTISLIT=8.340000
_ANALYZER_CODE=0
; None
_DATEMEASURED='16-Oct-2023 11:15:18'
_WL_UNIT='A'
_WL1=1.540600
_WL2=1.544390
_WL3=1.392220
_WLRATIO=0.500000
_ANODE='Cu'
; (Data for Range number 1)
_DRIVE='THETA'
_STEPTIME=5.000660
_STEPSIZE=0.005000
_STEPMODE='C'
_START=0.000000
_THETA=0.000000
_2THETA=0.000000
_KHI=0.000000
_PHI=90
_X=1.577000
_Y=1.000000
_Z=0.275000
_DIVERGENCE=0.000000
_ANTISCATTER=0.000000
_DETECTOR=5
_DETECTORSLIT='unkn'
_AUX1=0.000000
_AUX2=0.000000
_AUX3=0.000000
_TIMESTARTED=2.000000
_TEMP_RATE=-1.000000
_TEMP_DELAY=-1.000000
_KV=40
_MA=35
_RANGE_WL=1.540600
_3DPLANE=0
_GONIOMETER=-0.002500
_PSDCHANNEL0=0
_2THETACOUNTS
   0.0000   2355270
   0.0050   3007120
   0.0100   3762390
   0.0150   4230380
   0.0200   4224280
   0.0250   3938810
   0.0300   3559930
   0.0350   3032050
   0.0400   2434860
   0.0450   1866740
   0.0500   1386620
   0.0550   1040300
   0.0600    845964
   0.0650    660151
   0.0700    573362
   0.0750    533015
   0.0800    516732
   0.0850    508495
   0.0900    492434
   0.0950    444222
   0.1000    398016
   0.1050    387223
   0.1100    391894
   0.1150    402826
   0.1200    415475
   0.1250    426724
   0.1300    442625
   0.1350    458435
   0.1400    474162
   0.1450    489687
   0.1500    506128
   0.1550    519014
   0.1600    530797
   0.1650    541125
   0.1700    535915
   0.1750    514355
   0.1800    522585
   0.1850    551426
   0.1900    560287
   0.1950    550186
   0.2000    568282
   0.2050    598886
   0.2100    616660
   0.2150    605845
   0.2200    579497
   0.2250    554249
   0.2300    523675
   0.2350    455231
   0.2400    351329
   0.2450    239202
   0.2500    152278
   0.2550     96907
   0.2600     73389
   0.2650     71396
   0.2700     75857
   0.2750     76830
   0.2800     69380
   0.2850     55546
   0.2900     39564
   0.2950     26853
   0.3000     20839
   0.3050     20578
   0.3100     24438
   0.3150     28282
   0.3200     29180
   0.3250     27254
   0.3300     22530
   0.3350     16703
   0.3400     11860
   0.3450      9422
   0.3500      9402
   0.3550     11044
   0.3600     13193
   0.3650     14374
   0.3700     14150
   0.3750     12604
   0.3800     10106
   0.3850      7676
   0.3900      5590
   0.3950      4875
   0.4000      5300
   0.4050      6425
   0.4100      7298
   0.4150      7810
   0.4200      7562
   0.4250      6748
   0.4300      5441
   0.4350      3938
   0.4400      3127
   0.4450      2845
   0.4500      3141
   0.4550      3895
   0.4600      4290
   0.4650      4697
   0.4700      4734
   0.4750      4057
   0.4800      3300
   0.4850      2634
   0.4900      2017
   0.4950      1902
   0.5000      2074
   0.5050      2358
   0.5100      2776
   0.5150      3009
   0.5200      3007
   0.5250      2680
   0.5300      2367
   0.5350      1806
   0.5400      1490
   0.5450      1375
   0.5500      1399
   0.5550      1629
   0.5600      1769
   0.5650      1995
   0.5700      1947
   0.5750      1863
   0.5800      1700
   0.5850      1314
   0.5900      1066
   0.5950      1022
   0.6000       957
   0.6050      1053
   0.6100      1236
   0.6150      1338
   0.6200      1360
   0.6250      1318
   0.6300      1213
   0.6350      1043
   0.6400       837
   0.6450       721
   0.6500       668
   0.6550       772
   0.6600       807
   0.6650       965
   0.6700       913
   0.6750       993
   0.6800       879
   0.6850       776
   0.6900       671
   0.6950       575
   0.7000       521
   0.7050       564
   0.7100       585
   0.7150       651
   0.7200       692
   0.7250       745
   0.7300       662
   0.7350       607
   0.7400       532
   0.7450       500
   0.7500       422
   0.7550       399
   0.7600       437
   0.7650       424
   0.7700       496
   0.7750       503
   0.7800       503
   0.7850       449
   0.7900       400
   0.7950       383
   0.8000       327
   0.8050       322
   0.8100       324
   0.8150       367
   0.8200       370
   0.8250       375
   0.8300       350
   0.8350       362
   0.8400       366
   0.8450       323
   0.8500       288
   0.8550       255
   0.8600       252
   0.8650       239
   0.8700       264
   0.8750       307
   0.8800       300
   0.8850       312
   0.8900       300
   0.8950       268
   0.9000       224
   0.9050       196
   0.9100       219
   0.9150       190
   0.9200       228
   0.9250       197
   0.9300       256
   0.9350       233
   0.9400       251
   0.9450       215
   0.9500       199
   0.9550       170
   0.9600       165
   0.9650       138
   0.9700       156
   0.9750       181
   0.9800       170
   0.9850       206
   0.9900       167
   0.9950       146
   1.0000       155
   1.0050       118
   1.0100       115
   1.0150        96
   1.0200       106
   1.0250       115
   1.0300       118
   1.0350       153
   1.0400       146
   1.0450       105
   1.0500       123
   1.0550       106
   1.0600        85
   1.0650        95
   1.0700        88
   1.0750        89
   1.0800       102
   1.0850        94
   1.0900       106
   1.0950        86
   1.1000        86
   1.1050        82
   1.1100        94
   1.1150        70
   1.1200        68
   1.1250        69
   1.1300        65
   1.1350        83
   1.1400        70
   1.1450        74
   1.1500        73
   1.1550        68
   1.1600        74
   1.1650        71
   1.1700        69
   1.1750        53
   1.1800        66
   1.1850        50
   1.1900        59
   1.1950        59
   1.2000        60
   1.2050        56
   1.2100        47
   1.2150        42
   1.2200        50
   1.2250        40
   1.2300        46
   1.2350        35
   1.2400        53
   1.2450        55
   1.2500        34
   1.2550        44
   1.2600        43
   1.2650        45
   1.2700        34
   1.2750        32
   1.2800        27
   1.2850        32
   1.2900        33
   1.2950        23
   1.3000        39
   1.3050        32
   1.3100        42
   1.3150        28
   1.3200        24
   1.3250        30
   1.3300        22
   1.3350        32
   1.3400        22
   1.3450        33
   1.3500        24
   1.3550        26
   1.3600        14
   1.3650        32
   1.3700        40
   1.3750        20
   1.3800        17
   1.3850        22
   1.3900        22
   1.3950        29
   1.4000        20
   1.4050        19
   1.4100        23
   1.4150        17
   1.4200        20
   1.4250        17
   1.4300        18
   1.4350        17
   1.4400        14
   1.4450        21
   1.4500        24
   1.4550        14
   1.4600        21
   1.4650        20
   1.4700        12
   1.4750        23
   1.4800        11
   1.4850        15
   1.4900        15
   1.4950        14
   1.5000        16
   1.5050        10
   1.5100        12
   1.5150        15
   1.5200         7
   1.5250        10
   1.5300        14
   1.5350        15
   1.5400        13
   1.5450        12
   1.5500        17
   1.5550        11
   1.5600        14
   1.5650        10
   1.5700        18
   1.5750        19
   1.5800        19
   1.5850        11
   1.5900        11
   1.5950         7
   1.6000        13
   1.6050         8
   1.6100        11
   1.6150         8
   1.6200        13
   1.6250        10
   1.6300        10
   1.6350         7
   1.6400         9
   1.6450         7
   1.6500         5
   1.6550         9
   1.6600         7
   1.6650         9
   1.6700         9
   1.6750        10
   1.6800         6
   1.6850         8
   1.6900         4
   1.6950         4
   1.7000         7
   1.7050         4
   1.7100        14
   1.7150         4
   1.7200         6
   1.7250         5
   1.7300         4
   1.7350         7
   1.7400         3
   1.7450         8
   1.7500         4
   1.7550         5
   1.7600        13
   1.7650         6
   1.7700         6
   1.7750         3
   1.7800        12
   1.7850         7
   1.7900         6
   1.7950         7
   1.8000         6
   1.8050         5
   1.8100         0
   1.8150         3
   1.8200         6
   1.8250         2
   1.8300         5
   1.8350         4
   1.8400         4
   1.8450         8
   1.8500         1
   1.8550         6
   1.8600         3
   1.8650         4
   1.8700         8
   1.8750         4
   1.8800         3
   1.8850         3
   1.8900         5
   1.8950         7
   1.9000         9
   1.9050         2
   1.9100         4
   1.9150         6
   1.9200         5
   1.9250         4
   1.9300         7
   1.9350         5
   1.9400         4
   1.9450         6
   1.9500         1
   1.9550         2
   1.9600         2
   1.9650         2
   1.9700         6
   1.9750         6
   1.9800         0
   1.9850         3
   1.9900         1
   1.9950         0
   2.0000         3
   2.0050         1
   2.0100         3
   2.0150         4
   2.0200         6
   2.0250         5
   2.0300         4
   2.0350         3
   2.0400         3
   2.0450         4
   2.0500         1
   2.0550         8
   2.0600         3
   2.0650         4
   2.0700         0
   2.0750         3
   2.0800         4
   2.0850         2
   2.0900         1
   2.0950         5
   2.1000         2
   2.1050         2
   2.1100         1
   2.1150         3
   2.1200         4
   2.1250         1
   2.1300         2
   2.1350         4
   2.1400         0
   2.1450         3
   2.1500         0
   2.1550         2
   2.1600         1
   2.1650         2
   2.1700         2
   2.1750         1
   2.1800         3
   2.1850         1
   2.1900         2
   2.1950         0
   2.2000         3
   2.2050         0
   2.2100         0
   2.2150         4
   2.2200         0
   2.2250         1
   2.2300         1
   2.2350         2
   2.2400         3
   2.2450         4
   2.2500         5
   2.2550         3
   2.2600         0
   2.2650         0
   2.2700         0
   2.2750         1
   2.2800         2
   2.2850         0
   2.2900         3
   2.2950         0
   2.3000         2
   2.3050         2
   2.3100         1
   2.3150         2
   2.3200         1
   2.3250         0
   2.3300         1
   2.3350         3
   2.3400         3
   2.3450         0
   2.3500         0
   2.3550         0
   2.3600         3
   2.3650         3
   2.3700         0
   2.3750         3
   2.3800         1
   2.3850         2
   2.3900         1
   2.3950         0
   2.4000         0
   2.4050         0
   2.4100         2
   2.4150         2
   2.4200         3
   2.4250         0
   2.4300         1
   2.4350         4
   2.4400         0
   2.4450         0
   2.4500         2
   2.4550         3
   2.4600         1
   2.4650         1
   2.4700         2
   2.4750         1
   2.4800         2
   2.4850         0
   2.4900         1
   2.4950         1
   2.5000         0