File: Stefans_V44/datastefan/omega_scan_background.UXD
; C:\DIFFDAT1\Praktikum\Christian_Stefan\omega_scan_background.raw(Diffrac Plus V1.01 file) converted by XCH V1.0
_FILEVERSION=2
_SITE='Deutschland'
_USER='Administrator'
_GONIOMETER_CODE=4885
; D8 Theta/Theta; Special
_SAMPLE_CHANGER_CODE=0
_ATTACHMENTS_CODE=0
_GONIOMETER_RADIUS=350
_FIXED_DIVSLIT=0.600000
_FIXED_SAMPLESLIT=0.000000
_FIXED_DETSLIT=11.66
_MONOCHROMATOR=0
; None
_THIN_FILM='N'
_BETA_FILTER='Y'
_FIXED_ANTISLIT=8.340000
_ANALYZER_CODE=0
; None
_DATEMEASURED='16-Oct-2023 12:00:09'
_WL_UNIT='A'
_WL1=1.540600
_WL2=1.544390
_WL3=1.392220
_WLRATIO=0.500000
_ANODE='Cu'
; (Data for Range number 1)
_DRIVE='THETA'
_STEPTIME=5.000660
_STEPSIZE=0.005000
_STEPMODE='C'
_START=0.000000
_THETA=0.000000
_2THETA=0.200000
_KHI=0.000000
_PHI=90
_X=1.577000
_Y=1.000000
_Z=0.275000
_DIVERGENCE=0.000000
_ANTISCATTER=0.000000
_DETECTOR=5
_DETECTORSLIT='unkn'
_AUX1=0.000000
_AUX2=0.000000
_AUX3=0.000000
_TIMESTARTED=1.000000
_TEMP_RATE=-1.000000
_TEMP_DELAY=-1.000000
_KV=40
_MA=35
_RANGE_WL=1.540600
_3DPLANE=0
_GONIOMETER=0.197500
_PSDCHANNEL0=0
_2THETACOUNTS
   0.0000     75967
   0.0050     56804
   0.0100     44858
   0.0150     37966
   0.0200     32613
   0.0250     27450
   0.0300     24035
   0.0350     22155
   0.0400     19270
   0.0450     17661
   0.0500     15928
   0.0550     13188
   0.0600     11139
   0.0650     10029
   0.0700      8416
   0.0750      7708
   0.0800      6729
   0.0850      6258
   0.0900      5848
   0.0950      5493
   0.1000      5255
   0.1050      4943
   0.1100      4691
   0.1150      4372
   0.1200      4306
   0.1250      4028
   0.1300      3997
   0.1350      3865
   0.1400      3842
   0.1450      3674
   0.1500      3650
   0.1550      3529
   0.1600      3335
   0.1650      3327
   0.1700      3161
   0.1750      2964
   0.1800      2857
   0.1850      2787
   0.1900      2508
   0.1950      2306
   0.2000      2213
   0.2050      2061
   0.2100      1817
   0.2150      1677
   0.2200      1544
   0.2250      1457
   0.2300      1319
   0.2350      1191
   0.2400      1110
   0.2450      1073
   0.2500       953
   0.2550       898
   0.2600       840
   0.2650       777
   0.2700       772
   0.2750       723
   0.2800       644
   0.2850       574
   0.2900       525
   0.2950       466
   0.3000       401
   0.3050       337
   0.3100       323
   0.3150       266
   0.3200       227
   0.3250       149
   0.3300       113
   0.3350        91
   0.3400        83
   0.3450        54
   0.3500        38
   0.3550        54
   0.3600        49
   0.3650        35
   0.3700        43
   0.3750        34
   0.3800        41
   0.3850        31
   0.3900        46
   0.3950        33
   0.4000        29
   0.4050        39
   0.4100        38
   0.4150        33
   0.4200        31
   0.4250        34
   0.4300        28
   0.4350        40
   0.4400        26
   0.4450        26
   0.4500        21
   0.4550        27
   0.4600        24
   0.4650        17
   0.4700        28
   0.4750        28
   0.4800        29
   0.4850        21
   0.4900        17
   0.4950        20
   0.5000        15
   0.5050        23
   0.5100        20
   0.5150        20
   0.5200        24
   0.5250        19
   0.5300        25
   0.5350        21
   0.5400        23
   0.5450        21
   0.5500        25
   0.5550        18
   0.5600        25
   0.5650        15
   0.5700        12
   0.5750        19
   0.5800        23
   0.5850        14
   0.5900        24
   0.5950        18
   0.6000        22
   0.6050        26
   0.6100        17
   0.6150        18
   0.6200        27
   0.6250        23
   0.6300        19
   0.6350        19
   0.6400        21
   0.6450        19
   0.6500        13
   0.6550        26
   0.6600        18
   0.6650        20
   0.6700        20
   0.6750        14
   0.6800        20
   0.6850        21
   0.6900        16
   0.6950        21
   0.7000        19
   0.7050        15
   0.7100        16
   0.7150        17
   0.7200        23
   0.7250        23
   0.7300        23
   0.7350        19
   0.7400        17
   0.7450        14
   0.7500        13
   0.7550        24
   0.7600        12
   0.7650        26
   0.7700        22
   0.7750        33
   0.7800        18
   0.7850        25
   0.7900        22
   0.7950        20
   0.8000        33
   0.8050        20
   0.8100        24
   0.8150        24
   0.8200        18
   0.8250        23
   0.8300        34
   0.8350        25
   0.8400        26
   0.8450        13
   0.8500        24
   0.8550        22
   0.8600        18
   0.8650        20
   0.8700        20
   0.8750        25
   0.8800        10
   0.8850        12
   0.8900        11
   0.8950         9
   0.9000         8
   0.9050         8
   0.9100         1
   0.9150         3
   0.9200         5
   0.9250         3
   0.9300         5
   0.9350         4
   0.9400         6
   0.9450         3
   0.9500         5
   0.9550         3
   0.9600         4
   0.9650         3
   0.9700         3
   0.9750         5
   0.9800         4
   0.9850         6
   0.9900         1
   0.9950         6
   1.0000         2
   1.0050         0
   1.0100         2
   1.0150         5
   1.0200         1
   1.0250         6
   1.0300         4
   1.0350         4
   1.0400         2
   1.0450         3
   1.0500         3
   1.0550         3
   1.0600         6
   1.0650         5
   1.0700         5
   1.0750         2
   1.0800         2
   1.0850         5
   1.0900         3
   1.0950         5
   1.1000         3
   1.1050         0
   1.1100         0
   1.1150         3
   1.1200         3
   1.1250         6
   1.1300         2
   1.1350         3
   1.1400         5
   1.1450         2
   1.1500         2
   1.1550         1
   1.1600         3
   1.1650         2
   1.1700         3
   1.1750         2
   1.1800         1
   1.1850         1
   1.1900         2
   1.1950         4
   1.2000         4
   1.2050         2
   1.2100         1
   1.2150         1
   1.2200         0
   1.2250         2
   1.2300         3
   1.2350         3
   1.2400         0
   1.2450         3
   1.2500         0
   1.2550         2
   1.2600         1
   1.2650         4
   1.2700         1
   1.2750         2
   1.2800         1
   1.2850         3
   1.2900         1
   1.2950         1
   1.3000         2
   1.3050         1
   1.3100         2
   1.3150         1
   1.3200         1
   1.3250         5
   1.3300         0
   1.3350         2
   1.3400         0
   1.3450         3
   1.3500         1
   1.3550         1
   1.3600         0
   1.3650         2
   1.3700         3
   1.3750         1
   1.3800         0
   1.3850         1
   1.3900         1
   1.3950         0
   1.4000         0
   1.4050         0
   1.4100         1
   1.4150         1
   1.4200         3
   1.4250         2
   1.4300         1
   1.4350         2
   1.4400         4
   1.4450         0
   1.4500         4
   1.4550         4
   1.4600         1
   1.4650         2
   1.4700         1
   1.4750         1
   1.4800         0
   1.4850         2
   1.4900         1
   1.4950         2
   1.5000         0
   1.5050         0
   1.5100         1
   1.5150         1
   1.5200         2
   1.5250         0
   1.5300         3
   1.5350         0
   1.5400         0
   1.5450         4
   1.5500         1
   1.5550         1
   1.5600         2
   1.5650         2
   1.5700         1
   1.5750         2
   1.5800         1
   1.5850         1
   1.5900         0
   1.5950         1
   1.6000         3
   1.6050         3
   1.6100         0
   1.6150         1
   1.6200         2
   1.6250         4
   1.6300         0
   1.6350         1
   1.6400         1
   1.6450         0
   1.6500         0
   1.6550         1
   1.6600         2
   1.6650         2
   1.6700         2
   1.6750         1
   1.6800         0
   1.6850         2
   1.6900         2
   1.6950         1
   1.7000         0
   1.7050         1
   1.7100         1
   1.7150         0
   1.7200         0
   1.7250         1
   1.7300         0
   1.7350         1
   1.7400         0
   1.7450         2
   1.7500         1
   1.7550         2
   1.7600         1
   1.7650         5
   1.7700         1
   1.7750         0
   1.7800         0
   1.7850         0
   1.7900         0
   1.7950         1
   1.8000         0
   1.8050         1
   1.8100         0
   1.8150         0
   1.8200         0
   1.8250         2
   1.8300         1
   1.8350         0
   1.8400         0
   1.8450         0
   1.8500         0
   1.8550         2
   1.8600         1
   1.8650         2
   1.8700         0
   1.8750         0
   1.8800         0
   1.8850         2
   1.8900         3
   1.8950         0
   1.9000         2
   1.9050         1
   1.9100         0
   1.9150         2
   1.9200         0
   1.9250         1
   1.9300         1
   1.9350         0
   1.9400         1
   1.9450         0
   1.9500         0
   1.9550         0
   1.9600         0
   1.9650         0
   1.9700         0
   1.9750         1
   1.9800         0
   1.9850         1
   1.9900         1
   1.9950         2
   2.0000         2
   2.0050         0
   2.0100         0
   2.0150         1
   2.0200         1
   2.0250         1
   2.0300         2
   2.0350         0
   2.0400         2
   2.0450         1
   2.0500         1
   2.0550         0
   2.0600         0
   2.0650         0
   2.0700         3
   2.0750         1
   2.0800         0
   2.0850         0
   2.0900         1
   2.0950         3
   2.1000         0
   2.1050         2
   2.1100         0
   2.1150         2
   2.1200         1
   2.1250         2
   2.1300         2
   2.1350         0
   2.1400         0
   2.1450         1
   2.1500         0
   2.1550         2
   2.1600         3
   2.1650         2
   2.1700         2
   2.1750         1
   2.1800         0
   2.1850         1
   2.1900         2
   2.1950         1
   2.2000         1
   2.2050         2
   2.2100         0
   2.2150         1
   2.2200         1
   2.2250         0
   2.2300         1
   2.2350         1
   2.2400         0
   2.2450         1
   2.2500         1
   2.2550         1
   2.2600         0
   2.2650         0
   2.2700         2
   2.2750         1
   2.2800         0
   2.2850         0
   2.2900         0
   2.2950         3
   2.3000         2
   2.3050         0
   2.3100         3
   2.3150         0
   2.3200         0
   2.3250         0
   2.3300         1
   2.3350         0
   2.3400         0
   2.3450         1
   2.3500         0
   2.3550         0
   2.3600         1
   2.3650         0
   2.3700         0
   2.3750         1
   2.3800         0
   2.3850         1
   2.3900         0
   2.3950         2
   2.4000         1
   2.4050         0
   2.4100         0
   2.4150         0
   2.4200         0
   2.4250         2
   2.4300         0
   2.4350         1
   2.4400         0
   2.4450         1
   2.4500         1
   2.4550         0
   2.4600         0
   2.4650         2
   2.4700         0
   2.4750         1
   2.4800         2
   2.4850         2
   2.4900         0
   2.4950         0
   2.5000         3